File: DataSets/T2800L10N10000/xrd
890001 1235 1449 4489 5021 5527 5599 5764 7653  8192
890004 2912 3269 6030 6524 6962 7937  9739
890007 244 2661 3977 6323 7502 7892 9754  9778
890010 185 1688 2007 2975 3438 3585 4529 5146 6936 6960 7099 7256 8257  8570
890013 125 419 916 1058 1236 3280 3482 4203 4996 6066 6627 8030 8521  9852
890016 881 2915 3493 3793 3837 4295 4528 5103 5224 5376 6315 6717 7526 8139  8905
890019 78 1987 2079 3269 4215 5884 6669 6953 7519 9425 9474 9488  9858
890022 352 1556 2715 4156 4557 5212 6589 7037  7922
890025 1094 2129 2349  4661
890028 2369 3154 4995 6651 8013 8966  9114
890031 4449 5154 5580  8360
890034 250 585 1872 1902 2303 2347 4119 4349 7241 7349 7556  8760
890037 403 860 889 1898 1978 3620 4594 4931 5823 6032 6195 6701 7550 7985 8231 9359 9433  9775
890040 49 898 2079 2395 4577 5104 5459 5616 5809 5898 7333 7647 8721  8786
890043 1490 3508 5200 5513 5658 5818 5893 8019  8757
890046 721 1321 2480 2520 4188 4997 6935  9232
890049 39 2377 2512 3524 3582 6839 8903  9784
890052 222 545 2268 3404 4198 4898 5507 5788 5902 7307 7472 8436 9216  9568
890055 1352 1933 4448 5885 6098  8288
890058 1232 1829 3112 5749 7468 7983 8637 9412 9565  9834
890061 1763 2039 2669 2878 3196 5671 6790 7884 9572  9698
890064 244 898 1242 1293 1516 1645 3348 4467 5444 5565 6023 7985 8584  8591
890067 2177 2385 6194 6281 9126  9532
890070 74 1049 1815 2075 5885 6015 7559 7685  9234
890073 1893 2380 2929 3258 3507 4012 4528 4585 5009 5391 5481 5963 6317 6704 8461  8467
890076 810 895 2885 4539 5008 6525 7111 8854  9285
890079 14 4876 5456 6043 6044 6602 7316 7623 7981 8246 8297 8306 8929 9651  9722
890082 111 353 1618 1649 1771 5133 6591 8122 8703 9729  9747
890085 485 545 2045 2392 2673 3316 3543 4296 4349 4871 4918 5174 5408 5788  7438
890088 44 813 2857 3206 5027 6576 8180 8835 9427 9777  9804
890091 478 3754 5288  5626
890094 91 4020 4247 4997 6099 6284 8462  9848
890097 908 946 1099 3159 4052 6012 7132 7616  9630
890100 709 1600 1604 1616 5830 6237  9161
890103 56 274 2131 3475 4295 4706 5073 6914 9161  9500
890106 1745 3005 3551 5201 5799  7404
890109 2385 3574 4344 5152 5326 5458 5572 5595 6322 7613 8460  9199
890112 4499 7774  9693
890115 680 3034 7001 7478 7957 8013 8735 8765  8851
890118 4190  4668
890121 1052 1229 1272 2147 3808 4142 4414 4811 5442 5629 6029  9544
890124 310 847 1604 3875 4025 4204 4277 4769 5441 6373 7205 7316 7660 7872 7884 8026 8089 8181 8542 8902  8944
890127 860 1273 1934 2855 3620 4449 4594 4863 5034 5823 6701 7550 8057 8854 9359  9433
890130 185 524 1790 2362 3812 4132 4218 4862 4904 5927 6927  8615
890133 1829 2435 3034 5490 6500 8013 8765 8851  9275
890136 163 977 1658 2063 3211 5374 6930 7853 9225 9391  9415
890139 2483 3133 3962 4030 4966 5431 5560 7242 8927 9330  9460
890142 625 1054 2502 3117 5040 5049 6142 6310  9230
890145 18 118 1403 1616 5298 6194 6539 7205  8289
890148 2849 3483 3629 4907 5146 7114 7162 8083 9504  9616
890151 315 2986 2992 6133  6935
890154 395 441 1416 1809 3511 4250 5011 5072 6351 7866  8106
890157 160 2512 2752 3730 4079 6839 7328 8980 9737  9784
890160 1744 2177 2363 3210 3726 3888 4694 5164 5640 8049  8781
890163 11 751 2899 4661 6624 6823 6889 8629 8997 9147  9369
890166 2377 2622 2860 2951 3071 3096 3580 4491 4774 5348 5523 5768 5813 7070  8067
890169 364 2341 3591 4812 7557 7913 8119 8180 8214 8835 9427 9756  9777
890172 274 364 1437 2361 2976 3484 4443 4705 5080 6273 6952 7471 8569 8653 9197 9281  9443
890175 549 1088 3570 4995 6575  7650
890178 457 1253 1785 2221 2996 3451 3756 4144 4960 6151 6546 6708 7694  8326
890181 526 741 768 903 1754 2955 4476 4565 4703 5653 6099 6430 7808 9264 9662  9848
890184 148 690 979 1573 3587 5867 6238 7612 8360  9565
890187 1821 3437 5140 6613 6665 6779 7189  8106
890190 827 3159 6012  6651
890193 286 618 649 850 1319 1883 2159 2508 6049 6113 6130 6797 7307 8016  8067
890196 1645 1953 5485 6953 9325  9460
890199 1093 1963 2301 2807 4238 4246 4443 5595 5654 5704 6099 7053 7140 8144 8798 9270 9495  9789
890202 2899 3254 3949 4571 5482 5823 6701 7426 7734 7877 8021 8055 8100 8843 8915  9302
890205 334 549 595 1333 2120 3437 3821 4493 4911 6430 6663 7581 8014 8097  9741
890208 1403 1720 4025 4204 4277 5252 5263 5339 6179 6539  9505
890211 1201 1436 1892 3431 5415 6427 9069 9697  9867
890214 286 850 1550 2205 2789 3278 4705 4755 5660 5942 6049 6256 6476 7859 8067 8757 8759 8871 9633  9842
890217 502 2608 4887 4898 6575  8217
890220 815 2119 2740 2890 3682 3911 4190 4432 7307 8016  9129
890223 621 2555 3326 4364 4980 6099 9287  9570
890226 1729 1798 2792 3622 3906 5802 6589 7119 7447 7594  8763
890229 90 144 1259 2846 3025 3352 3551 8610  9280
890232 308 1939 2357 2664 3257 3583 5421 5882 6489 6777  7801
890235 378 4368 4559 4599 6011 6792  7387
890238 222 322 852 853 2420 3610 5065 5068 7125 7364 7790 7852  9359
890241 1022 1052 1215 2711 2742 3573 4805 5593 5990 6491 7577 8799  9460
890244 1728 2858 2960 3190 4286 4295 6009 6344 6480 7846  8911
890247 1887 1929 2807 3243 3807 4018 4135 6326 7690 7926 8278 8950  9167
890250 137 500 1450 1642 2450 2965 5575 5813 7866 7874  9185
890253 690 1702 2712 3050 4527 5153 5163 5478 5690 7046 7309 7420  9726
890256 160 789 2263 3133 3847 4506 5560 6640 7002 7242 9330 9460  9643
890259 448 1604 5830 6935  7610
890262 850 1690 1695 3330 4303 4831 7646 7655 7853  9119
890265 295 3822 4363 4665 5574 5601 6650 7078 7648 8035  9737
890268 364 1437 4894 6107 6340 7673 7778 8119 8653  8739
890271 111 1684 2307 2759 2946 3864 5066 5068 6593 7659 8228 8463 9047 9099  9123
890274 429 507 774 1809 1818 2643 4112 4589 5218 6220 7307 7948 8860  8964
890277 638 7177 7355  9666
890280 34 523 1497 1539 1793 1989 2022 2206 2559 3525 4918 5845 6021 6304 7140 7154  9247
890283 1392 1521 2334 2712 3606 5859 6847 6889 7333 8034  9211
890286 303 5236 5551 6159 6538 7424 8089  9287
890289 1201 1489 6811 9058  9754
890292 140 1476 2883 3516 5014 8111 9055  9418
890295 709 1153 1426 1809 1906 3369 3825 6441 7008 9443  9586
890298 895 1151 1478 2324 2752 3766 3919 4257 4747 5762 5886 6470 8521 8989 9049  9683
890301 992 3149 3463  8642
890304 1628 1809 2206 2962 4527 5352 5380 7817 8573  9510
890307 1497 1539 1704 3966 4283 4918 5047 5306  9741
890310 209 313 1397 1585 2721 2750 2907 3536 4333 4592 5823 6088 7130 7542 7820 7853 8029 8361 8766  9810
890313 2465 2854 3201 3301 4405 4569 5490 6775 7861 8959  9102
890316 715 1273 2733 4135 4390 5635 5921 6398 8067 8557  9786
890319 1293 1388 4271 4462  9382
890322 973 1717 2206 2207 5101 7382 7396 7794 8136 8714  9852
890325 1785 2883 8424 8774  8890
890328 512 946 3567 4514 5663 8421 8485 9123  9307
890331 793 1292 2402 2764 3214 3644 4721 5847 6666 6895 7078  8761
890334 448 875 3708 4887 6971  7463
890337 1918 4153 6668 7177  7908
890340 474 488 1049 1762 2740 3463 4775 7327 7867 9342 9374  9546
890343 2078 2715 3126 3359 3724 5012 5348 5828 5981 6021  8625
890346 364 3591 4812 7913  8214
890349 245 865 1348 2068 2919 3656 3693 5434 5861 5944 6606 6661 7694 8718  9223
890352 718 889 1423 1629 2567 5080 6520 6927 7543 7982  9172
890355 652 1368 1915 3511 3583 5328 8745 8950  9077
890358 1024 1231 2544 3951 4602 5422 8397  9569
890361 813 1456 2009 2134 2489 2687 3587 4031 4511 5802 6263 8709 8862 8974 9330 9515  9578
890364 441 808 2381 4761 6665 6855 7892 9026 9183  9743
890367 449 656 1477 3348 5048 5434 5931  9606
890370 1041 2234 2679 3872 4936 7132 8020  9676
890373 895 1989 2232 2324 2752 4762 6128 7143  9683
890376 267 286 597 850 2030 2450 3635 4562 5746 6049 7986  8067
890379 690 1604 4335 4411 5611 6142 6701 7321 7826 8328 8573  9910
890382 808 1369 1896 1925 2607 2900 3108 6144 7267 7521 7618 9120  9488
890385 3129 3254 4322 6288  6664
890388 110 1950 3286 3448 3645 6576  7334
890391 336 875 1557 1659 5927  6044
890394 110 139 1297 1714 3286 3448 3510 3645 3720 5207 7618 8210  8246
890397 1129 1928 2778 4654 6586 7330 7599  9181
890400 254 478 1879 2341 3784 3887 4069 4092 4476 4529 4708 6969 7169 7534 7668 9454  9983
890403 221 1218 3334 4756 5153 5949 7821  8103
890406 3174 4714 5251  5308
890409 91 4020 4114 4247 5342 6284 7645 8443 8462  8672
890412 213 2142 2288 2582 6074 7600  8325
890415 2120 4069 4114 4592 4983 5552 6918 7009 7472 8443  8474
890418 359 2481 2602 2893 2959 3512 5398 5771 6981 7366 7947 8049 8166 8772 9647  9703
890421 653 2420 3355 4951 5653 5721 5976 8172  9480
890424 861 3573 4049 5605 6194 7528  9091
890427 4140 4904 5218  5333
890430 4785 4923 5546 5945 6174 6292 6674 8771  9069
890433 478 500 1862 2362 3156 3413 4132 5405 5927 6564 7920  8072
890436 4911 5429 6781  9246
890439 67 110 1446 2511 3545  7688
890442 685 2400 2415 2480 3821 4365 5229 5570 9235 9439  9929
890445 822 830 2328 3334 4756 5153 7514 7821 9546  9783
890448 1829 2205 3133 6470 7520 8077 8727  9959
890451 439 2857 4407 4700 5153 5930 6058 6431 6620 7358 7986 8678 8905 9508  9616
890454 562 1948 2976 3039 4260 4420 4858 4943 7840 8062 9037  9683
890457 421 6202  6647
890460 853 2046 2131 3009 4209 7746 8057 8352 8362 8694  8818
890463 808 1925 2273 3108 3957 5088 5587 6010 6144 6168 7521  9130
890466 1398 1711 3812 5347 6187 7606 7941 8126 9225  9996
890469 601 3387 3708 3837 3844 7258 7483 8323 8538 8821 9063  9310
890472 186 1867 2383 2812 3071 3090 3137 4818 5355 5545 6530 7311  7983
890475 281 1640 2366 5795  8125
890478 1243 3166 5292  7300
890481 406 1025 1038 2851 3887 4344 5002 6427 9036 9123 9757  9957
890484 731 1489 1875 2724 6694  9583
890487 327 2593 3524 5031 5129 5726 6931  9030
890490 2436 2913 3057 3853 5343 6058 7853  9806
890493 3086 8536 8909  9940
890496 1243 6193 7754 9376  9953
890499 1933 5016 5063 5374  6061
890502 108 835 1396 1450 2131 2700 3188 4577 5073 6953 8026 8637 9500  9969
890505 704 993 2457 4411 5174 6643 7070 7785 9120  9624
890508 104 593 1925 2139 3754 3849 4411 5449 5826 7092 7524 9229  9773
890511 772 2190 5064 5327 5845 6924 7563 8173 8908  9840
890514 1131 1888 5692 7791  9130
890517 850 1645 2167 2716 4118 6313  7722
890520 492 3449 3886 5928 6114  9261
890523 690 951 1673 2255 2792 2866 3356 4019 4032 7693 9739  9897
890526 4882 7007 8520  9737
890529 294 378 601 968 1920 1972 2196 3122 4187 4238 4645 4887 5523 5543 6411 7574 8821 9191 9476  9662
890532 223 427 2523 2919 2962 3005 3204  7188
890535 1929 2260 2362 2776 4215 5837 6097 7347 8498 8687  9370
890538 2249 3555 6244 6387 7147 7276 7881 8209  8602
890541 891 1420 2147 2996 6049 6572 7866 8704 8747  8781
890544 3935 5136 7483  8082
890547 1195 1218 3155 4354 6643 6856 7685  8303
890550 408 630 3129 3728 3775 4557 5130 5282 6284  6701
890553 1074 1896 3792 4217 5537 5809 6074 6622 6918 7159  8501
890556 321 1058 1885 2596 3173 3325 5368 5586 5803 6360 8689 9701  9796
890559 343 351 2053 2511 2773 3656 3942 6200 6277 7614 7648 8730 9784  9891
890562 313 489 2523 3605 7915 8212  9246
890565 875 1427 3188 3471 4364 5098 6839 7184 7557 8006 8190  9833
890568 514 664 2220 2341 3679 4250 5601 6009 7207 8700 8781  9808
890571 668 792 1080 1335 1584 2727 3312 3844 3951 4065 4333 5828 9148  9460
890574 244 1293 4556 6023 7326  7985
890577 230 577 1062 2182 4757 6525  8989
890580 2208 2249 2633 3398 6313  8968
890583 2023 2310 4256 5081 5522 5844 8192 8757 8759 9244  9687
890586 2023 2040 3578 4256 4390 4491 5081 7216 8515 8757 8759  9687
890589 1398 1659 3463 4126 5699 6990 7038 8706  9883
890592 42 1488 1829 5450 5927 7557  8714
890595 6 1875 2721 3065 3475 4864 4868 5546 5737 6792 8759 9197  9623
890598 4644 5479 7209 7238  7865
890601 334 595 3821 4226 5348 5613 6243 6663 7646 8014 8126  9018
890604 2628 2721 3396 4032 4864 4868 5737 6099 6665 8566 8759 9708  9808
890607 1310 1950 1961 2334 2341 2764 3359 4724 5168 6643 8325 9488  9567
890610 443 677 2485 4144 5496 5715 6267 6931 7070 7719 7840  9734
890613 2351 4951 5653 8399 8920  8936
890616 1365 2379 2807 4259 5601 6411 6418 6491  6584
890619 340 964 1643 3368 3694 4590 5252 6179 6216 6290 7075  9505
890622 197 307 749 831 2758 4946 6256 6979 8966 9038 9693  9833
890625 599 1292 2935 3071 5064 6393 7193 7491 7812 9184  9508
890628 1450 1635 2307 3191 5391 6329 9123  9242
890631 111 815 881 1434 2921 3120 5912 5933 6676 6807 7720 7723 9667  9805
890634 110 2962 4412 4427 4976 6482 7266 7270 7382  7929
890637 1883 3387 4268 5823 6135 6291 6856 7187 8462 9460  9867
890640 826 2986 3381 4514 5651 7157 7694 8136 8555  9123
890643 821 1243 1497 1539 1620 3536 3809 4918 6546 6609 9002 9040  9560
890646 195 624 653 1460 3841 4671 4911 5336 5905 6430 7039 7581 8763 9242  9741
890649 1308 2195 2993 4674 9090  9819
890652 313 1798 2131 3622 3906 5006 5802 5823 6505 6790 7119  8763
890655 952 1680 2733 5635 5921 6152 6618 8067 8465 8959 9567  9630
890658 416 1170 2307 3612 4204 6593 7922 9005  9123
890661 755 1409 4427 4976 5160 5715 6489 7530 7685  9272
890664 147 831 3415 3793 5293 6699 7406 8447  8835
890667 108 160 1163 1659 2425 3838 5732 5947 9377  9883
890670 1529 2042 2045 3316 3543 4825 4871 4918 5408 7358 7695 7703  9068
890673 233 1531 3966 4592 5718 6576 6727 7046 7509  8557
890676 1821 2258 4559 4599 7387 8137 8521 8598  9567
890679 301 959 1926 2061 3980 4560 4934 7633 8361 8383 8428  9462
890682 334 595 3821 6200 6277 6663 7614 8014 9784  9891
890685 1567 1635 6329 7875  9382
890688 1156 1608 2065 2139 2839 3797 5144 5972 6602 6717 7307 7372 8016 8018  9826
890691 6048 7110  8668
890694 307 336 616 3773 4250 4401 4609 4675 6863  9373
890697 844 1477 3196 5601 5960 6847 7074 7356 8236 8871  9096
890700 221 3334 4756 5153 5949 7821  8103
890703 288 515 1477 2752 3605 3918 4899 5803  8920
890706 895 1376 3276 3648 4061 5349 5999 6716  7355
890709 776 898 1075 1127 2188 2409 2964 5080 6928 7665 7983 8419 9430  9676
890712 2139 2627 3298 3427 5406 6263 6438 7420  8857
890715 270 408 3018 3347 4375 4631 5174 6413 6960 7055 7871  8848
890718 2673  5963
890721 810 1474 4407 4631 4945 6628 7420 7674  7986
890724 364 619 1328 2063 3841 3896 4527 5285 5700 5905 6088 7407  9097
890727 1151 1157 1468 1845 2212 2544 3952 4262 4936 5387 5823 7080 8277 9608  9792
890730 524 1436 1892 2261 3078 3431 4412 5437 5673 6082 6135 6427 6813 7104 7396 7812  9938
890733 72 188 1702 2586 3448 3583 4032 4525 5150 8135 8338  8382
890736 307 593 2870 3738 4401 4489 4609 5584 7821 8125 8828  9373
890739 1758 6284 6649 7099  9737
890742 134 408 1062 1171 2097 2182 3644 3817 4557 6992 7471 7757  9110
890745 2849 3591 5351 7313  9460
890748 1 57 2961 3007 3231 3560 4376 5877 6891 7480 8086  9891
890751 160 2263 3381 5719 5846 6640 7002 7683 8915  9460
890754 1607 2023 2763 2834 3711 5595 6492 7576 8203 8400  9307
890757 2351 2511 6857 9026 9040 9303  9488
890760 364 563 1580 2795 3861 4550 6982 7305  7327
890763 2452 3095 4550 8248 8808  9860
890766 898 2254 2557 5040 5240 5445 6483 6599 7226 7857 7866 8567 8605 9691  9893
890769 143 558 970 1409 1885 2628 4015 4320 5965 6699 8424 9225 9630  9974
890772 653 2485 5601 5858 6027 7613 8027  9820
890775 204 1243 1931 2301 2381 2976 4383 4570 6073  6545
890778 1176 3344 5169 6322 7156 7610 7631 7920 8709  9701
890781 104 419 552 1252 3280 3503 6293 6627 7092  8583
890784 163 951 3703 4299  8274
890787 313 489 1697 2523 3605 6791 7915 8152 8212  9246
890790 2341 4978 5490 5731 7047 8348 8491  9983
890793 1667 2130 2461 2626 5170 7028 7813 8372  9806
890796 605 2206 2221 2236 2523 5285 6627  7744
890799 12 523 742 2502 4476 4632 4752 6291 8854  9662
890802 47 1608 2065 2327 2839 5144 6602 9057 9493  9826
890805 419 2263 2502 3224 3280 4801 6612  6627
890808 532 1850 1983 4341 5914 7061 7206 7757  9301
890811 272 598 1488 1728 4703 7556 9340  9829
890814 380 2417 3643 5918 6074 6651 7884 7899 8070 8776  9120
890817 3980 5193 8521  9584
890820 184 3153 3359 3406 4139 7582 7861  9285
890823 2607 4764 6239 6998  7140
890826 1110 1416 2981 3107  5201
890829 1989 2206 5845 7154  9247
890832 810 1277 1829 3259 3301 3334 3844 4996 6978 7258 7483 8323 8781 9777  9893
890835 359 2648 2802 2944 3378 3567 4974 5099 5612 5861 6599 7739 8757  9318
890838 715 992 1437 3889 4300 4550 4966 6715 6734 8900  9913
890841 335 441 1048 2559 5586 5707 6269 7046 7053 7572 7929  8915
890844 915 1324 1397 2663 5851 8054 8461 8612  8848
890847 234 321 746 1189 1913 2660 2990 3005 3649 3708 3709 5201 5979 6239 6418 6883 7600 7694  8926
890850 1798 3622 3906 7119  8763
890853 1 14 261 1128 2450 3806 5877 6311  8649
890856 1824  8271
890859 321 821 2731 3844 5342 5523 6600 8911 9314 9391  9784
890862 554 1604 1977 3648 3996 4412 4986 5608 6470 6484 7600 8923 9197  9688
890865 195 202 292 1962 1983 2563 2885 3195 3275 3483 4539 4644 5008 5676 6155 6328 7147 7847  8526
890868 279 431 690 1214 1564 1728 2196 2631 2858 4477 5153 5478 5546 6009 6883 7099 8382 9139  9612
890871 544 1094 1929 2147 2227 2542 2746 3005 3155 4162 4238 4462 7328 7800 7846  9620
890874 489 3605 3962 4454 4633 5431 8212 8927 9057 9088  9831
890877 554 744 4412 5366 5726 6470 7600 8722 9197 9245  9688
890880 154 186 1193 3413 3979 4287 7785  9141
890883 1277 1403 2030 2078 3802 4265 5205 5746 5905 5980 6097 6577 6613 7303 7986 8233  9769
890886 1022 1228 1525 2273 4354 4390 4577 5277 5511 5712 6551 7446 8598 8755  8950
890889 372 690 4259 4484 6641 7387 7401  8590
890892 653 1460 1726 3841 4095 4671 7039 7401 8968 9242  9305
890895 72 1249 1460 1891 2886 3042 4069 4618 5248 5489 7472  9554
890898 4 434 1570 2133 3591 4434 5284 5478  8798
890901 275 959 1511 2226 3900 5509 5548 6188 7877  8762
890904 457 2221 3451 3756 4144 4411 5380 5736 6546  9261
890907 482 1102 2172 3334 4140 4550 4756 4887 4904 5218 5543 5949 6930 7821 8103  9667
890910 267 1026 3354 3635 4717 5376 5548 6917  7835
890913 419 1023 1756 3280 6627 6935 7070 7286 8166 8379  9812
890916 220 258 868 1948 2161 2369 2471 2890 3312 3394 4502  4887
890919 2688 3644 4032 5601 6099 6665 8728 9460  9808
890922 615 4553 5572 5945 6091 6304  9320
890925 2834 3151 4752 4912 5165 5838 5847 6434 6806 8208 8757  9123
890928 908 1265 1926 2328 3138 4157 4764 5138 5315 5953 6188 6927 7656 9150 9302  9660
890931 474 499 599 1128 1637 2097 5022 5959 7645 8808 8975  9804
890934 532 668 991 1616 3091 3483 3498 3689 3887 5383 6534 6676 6960 7668  9779
890937 2221 5070 5335 7787 8075 8790  9630
890940 1017 3177 3853 4273 4333 5823 6385 6750 6952 7471 8569 9161 9348  9519
890943 2852 3268 5395 6393 6674 7248 7560 7646 7659  9671
890946 155 852 950 987 1363 2351 3097 3278 5063 5537 6283 6468 7502 8399 8920 8936  9174
890949 461 1301 1421 1821 2476 3002 3100 3732 4665 6077 8226  9789
890952 2337 3419 4253 6130 6158 6435 6927 7518 8387 9088 9789  9965
890955 636 1564 5571 8552 8597  9015
890958 177 561 3438 7687 8026  9052
890961 1721 3231 3843 5739 7430  8210
890964 190 1378 2640 2841 4286 6259 6483 7757  8166
890967 2807 3508 3694 5818 7140 7238 7370 7458 7753 8355 8798  9666
890970 861 2120 2231 3907 4049 4069 4592 5605 7472  8192
890973 1372 3149 3176 4303 5249 5700 7187 8277 8333  8890
890976 2835 8212 8254 9057 9567  9834
890979 1298 2534  4178
890982 3192 4088 4961 5092 5907 7238 7654 7776 7820 8523 8535  9553
890985 662 1088 1437 2219 2356 2626 2835 5129 6229  8299
890988 288 898 1153 1311 2420 4052 5240 5353 5648 6144 6340 6483 6606 8567 8604 8605  9893
890991 1326 2879 4225 5944  8575
890994 14 589 1397 2014 4248 5191 5456 6942 7199 7316 7623 8207  8297
890997 776 812 893 3383 5427 7040 7700 8016 8264  9345
891000 614 1420 2273 2507 2652 2976  9154
891003 241 714 2201 2628 3196 3690 4067 4412 5273 6259 6305  7250
891006 2254 2481 2589 2657 5445 5771 6229 7226 7857 7866 7947 8166  9369
891009 60 563 2075 2908 3174 3560 3881 5027 6953 7055  9983
891012 2022 2061 6476 9212  9369
891015 67 1446 2511 7130  7688
891018 614 874 2017 2183 4302 5688 8049 8660  9501
891021 108 2131 2700 3696 5073 6207 6393 6503 6953 7380 8093 8190 8589 9240 9500  9709
891024 99 2677 4665 8609  9613
891027 124 419 2663 2682 2764 3196 5956 8461 8612  9325
891030 1386 1567 2014 2852 5473 5575 5699 5813 5998 6960 7724 8575 8715 8801 9656  9721
891033 113 191 1141 1396 4551 5400 5687 6376  7427
891036 601 898 1214 1242 1368 3945 4601 4814 8584 8821  9362
891039 110 2330 3286 3448 3645 4551 7493 8210  9982
891042 2572 3408 4767 5293 6276 6757 7609 7783 8600 9391  9775
891045 545 2206 2363 2694 3138 3734 5025 5823 6236 6521 8515 8641 9731 9804  9943
891048 1145 4127 6752 6862 8236  9811
891051 5878 6310 7466  7897
891054 709 1662 2557 3129 3316  4218
891057 1473 2337 3508 3694 4249 4350 5818  9666
891060 503 614 1055 1323 1420 2273 2507 2652 2976 4208 7530  9154
891063 160 2320 4951 5338 5522 6306 7690 7820 9365 9478  9805
891066 188 684 813 1292 2506 6293 8089 9230  9729
891069 512 886 1673 4963 5006 5335 6270 7668 8614  9417
891072 113 267 992 1921 2273 2450 2489 3354 3635 4562 4573 5351  5376
891075 1745 3005 3551 5201 5799  7404
891078 1448 2147 2567 2792 3113 3549 4462 6764 6777 7361  7913
891081 60 430 875 3696 5656 5765 5867 6503 6856 7494 9057 9426  9709
891084 275 6764 8362 8760 8785 9238  9790
891087 129 321 1381 2959 3879 5976  8657
891090 143 1161 4015 7083 9225 9630 9739  9974
891093 364 1437  8653
891096 321 1974 5460 6207  7014
891099 433 891 1128 2040 5656 5976 8457 8860  9150
891102 1216 1218 1692 2067 2461 3469 3471 5202 7990 8835 9037  9287
891105 374 434 792 2505 2849 3301 4200 4594 5211 8226 9789  9866
891108 230 3387 5656 6947  9150
891111 2822 6340 6947 7097 7847  9740
891114 481 754 1000 1093 2254 2326 2926 3934 4469 5445 6292 7866 8026 8793 9000 9123  9383
891117 3025 3352 3551 5608 6723 6981 7544 7695  8289
891120 970 1709 2407 2472 4084 6468 6865  9901
891123 67 2055 5990 6692 7087  7535
891126 654 1240 1582 1640 2470 2674 4987 7313  8637
891129 652 1094 1785 4357 5049 5169 8313 8937 9855  9984
891132 254 322 1432  1854
891135 170 1326 4274 6173 7237 7249 7329 7852 9617 9648 9680  9806
891138 449 958 1040 1454 2060 3900  7297
891141 605 1176 3394 3526 4498 5384 6636 8214  9847
891144 1956 5650 7204 7387 8338 8887  9682
891147 925 2075 3606 4029 4757 4784 5553 5684 6075  7090
891150 240 513 1033 1950 2457 2612 4144 4393 5064 6924 8376 9087 9239  9352
891153 531 1807 4248 4983 5191 5288 6521 6591 6676 6942 7009 8346 8474  9834
891156 470 749 1022 2147 2219 2907 3969 4320 4427 5534 6437 7748 8548 8561 9000  9685
891159 1713 3395 5262 5775 6952 7401 7440 7471 8569 9305  9448
891162 550 2075 4178 4407 4945 5301 6628  7986
891165 301 609 1015 1476 1620 2993 5254 6262 6385 8368  9662
891168 1023 2046 2975 3174 3847 4873 5067 6352 7491 7995  8057
891171 563 731 1378 2573 2865 3607 4119 4681 6266 7757  9912
891174 595 1251 3573 3697 5409 6072 6194 7528  9091
891177 709 1771 4830 4885 6727 7639  9533
891180 34 945 2470 2857 3061 5251 6748 7188 7512 8062 8063 9318  9833
891183 2759 4739 5068 6310 9047  9099
891186 273 1479 1840 2466 2807 3853 4182 5578 5737  8898
891189 895 4218 4442 5223 6525 7111  7899
891192 310 474 488 766 823 2447 4571 7168 7327 8055 8843  9069
891195 1458 4030 4363 6298 8251 8491  8535
891198 5042 8065 8462 9058  9271
891201 4295 5484  5686
891204 457 1160 2221 2378 3451 3756 4144 4538 6284 6471 6546 7143 7238 8779 9389  9679
891207 301 609 1152 1620 2307 2601 3695 4317 5826 7329  8802
891210 851 3557 3991 4467 4592 5813 6329 7387 8022 8598  8726
891213 1630 2017 5669 6291  9612
891216 1112 1277 4703 4960 5366 5854 6713 7177 7618 7904 8017 8193 8663 9388  9567
891219 898 4320 5240 5965 6483 7891 8567 8605  9893
891222 421 1485 2131 3009 5718 6456 6654  7316
891225 958 966 2195 4429 6120 7119 8149  9771
891228 325 438 1454 3387 4089 5434 5575 5699 5828 5998 6958 7724 8801  9721
891231 166 1131 2097 2103 5732 5864 5885  6763
891234 1964 4559 4599 7387 8327  8876
891237 448 1020 1794 1888 2881 4960 7209 7329 8801  9488
891240 47 108 429 1093 1224 2044 2673 2975 3190 5151 5456 6800 7303 7623 7947 8224  9079
891243 934 2851 4344 4646 5282 6284 6632  9123
891246 460 1160 2361 2712 2758 9444  9697
891249 110 1372 2669 3108 3196  7233
891252 2183 2653 4588 4620 7266 7592  9389
891255 2080 2883 2992 3311 4377 4675 4986 5387 6077 6204 6488 7876 8769 8815  9105
891258 129 731 1091 1181 1190 1489 1875 2327 2724 3248 5055 5185 6159 6543 6694 9090 9583  9630
891261 1737 3966 5030 5037 6154 6519  6879
891264 1023 3174 3773 3847 4873 6442 7720 8048 8630  9416
891267 310 455 1176 1190 2573 3017 3685 5081  7778
891270 3774 4187 4246 5288 5946 6057 6427 7299 7613 8657 8860 9008 9229 9454  9672
891273 1476 2899 2977 3232 3305 3709 5328 5784 6558 7685 7874 8427 8500 8974  9253
891276 213 1383 4491 4898 5042 7820  8761
891279 315 521 1745 2868 2999 3005 3551 4251 5201 5382 5407 5799 6523 7404  8226
891282 250 2743 2992 3009 4406 5163 6830 7070 7533  8380
891285 1055 1592 2505 2818 3900 4319 5169 5760 6580 6798 7562 8062 8567  8955
891288 416 1932 4997 7046 7753 7905 9307  9937
891291 288 1224 5262 5945 6674 6826 7347 8771 9612  9737
891294 886 1129 1701 1928 2412 3183 3821 4963 5755 6133 6586 8830 9090  9181
891297 2341 2989 4109 4156 6135 8905  9272
891300 1049 2740 7867 9342  9546
891303 108 808 1925 3108 3838 5732 6144 7521 9377  9883
891306 161 2147 3078 3774 4364 6339 7349 7754 8408  9881
891309 1291 1511 1562 2134 2364 2397 3524 3697 4444 4764 5153 5726 7178 7381 8895  9417
891312 1745 1896 2036 3005 4513 4636 5037 5201 5288 5524 5554 5799 6944 7043  7404
891315 34 2022 2139 6021 7372  8018
891318 866 1085 3196 7428 7508  9177
891321 891 1948 2221 3039 4588 5070 5439 5572 5840 6685 7187 7840 8122  9037
891324 2068 2852 3145 3468 4439 5351 5546 8789 8862  9867
891327 2792 5298 7693 7774 7775  9897
891330 261 593 908 1543 1780 2417 7357 8427 8595 8829 9567  9947
891333 307 593 2852 4401 4609 5823 6867  9373
891336 1310 2318 3442 3508 5315 5656 6413  9876
891339 86 315 1191 2826 2923 3093 4656 5079 5545 6474  8570
891342 5231 5721 7575  9683
891345 77 424 3178 3204 5191 5360  7576
891348 372 1319 2703 3547 4340 4868 4922  8567
891351 2866 3806 4363 4846 5037 6593 6643 7446 7682 7745 8304 8894  9899
891354 658 1249 2647 2764 3942 4392 5009 5248 6259 6688 7097 7361  8419
891357 853 2351 2731 8399 8626 8920  8936
891360 79 1204 2435 2452 3418 4024 4719 8271 8520 8894 9043  9865
891363 632 1164 1920 6341 6510 7439 8553 8829  8835
891366 2279 3897 4332 5073 5907 6360  9533
891369 2207 2341 2411 3387 3453 3529 3537 3730 4432 5552 6464 8832  9175
891372 1121 1127 4370 5216  6927
891375 685 2763 3071 3654 4681 5231 6192 7382 7719 7821 9120  9969
891378 230 593 2151 3387 3557 3837 4214 4258 5523 5823 6732 6935 7679 8281 9110  9971
891381 110 664 721 2380 2703 3545 3721  7358
891384 1518 2779 3179 5635 6580 6699  6931
891387 1497 1551 2409  6530
891390 858 1405 1756 1938 4420 4649 5840 6538 6722 6923 7995  9422
891393 203 2226 2557 3334 4090 5509 5700 6747 7052 7877  8576
891396 1063 2852 4551 4819 8277  9501
891399 2975 4665 4720 4880 7333  7334
891402 396 1441 1785 2288 4322 4354 4436 5211 6798 7955 8356 8909 9127 9253 9614  9828
891405 2226 3946 4542 5838 6326 6678  7428
891408 1595 1620 2409 2884 3932 4605 4615 6566  9452
891411 78 1987 4215 5884 6953  7519
891414 334 1436 2461 2802 2924 4374 4598 5199 5503 5777 6866 7356  8731
891417 704 2789 2996 3708 4960 5360 6256 6476 7859 8349 9451 9633  9686
891420 1214 1324 1368 1680 3945 4814 5027 5819 5826 7760 9225  9362
891423 1033 2048 2612 3258 4286 8376 8636 9352  9805
891426 8 81 223 474 1413 2380 2555 2919 3919 4752 5707 6832 7055 7188  8879
891429 2121 2890 3809 4344 4840 5026 5362 5688 6068 7025 7471  7706
891432 488 1713 1904 2716 3732 4436 6523 6935 7918  9100
891435 38 390 2568 2638 2764  5421
891438 1929 2147 2542 2746 3155 4162 4462  7800
891441 15 1953 2060 4335 5009 8115 8483  9263
891444 638 2961 3086 7726 8536 8909  9940
891447 599 959 3129 3934 4126 6393 7491 7812 8752 8982  9184
891450 1091 1181 1190 3248 5185 6159 9090  9630
891453 111 1338 3782 5439 6049 7163 7361 8353 9175 9729  9747
891456 321 1211 3370 3620 4307 5439 6049 8534 8832  9493
891459 3817 4557 6241 6464 6692  8711
891462 612 2537 2865 4873 7642 9310  9856
891465 545 984 2285 2931 4802 5338 5522 6115 7690 7820  9805
891468 1304 1322 2383 2679 2961 3103 3467 3733 3928 4602 4863 5042 7526 8595  9951
891471 175 213 364 538 2135 2142 2288 2582 3658 3890 6074 7366 7600 8325  9805
891474 403 5169 5387 6230 6322 6489 7156 7631 7669  7682
891477 86 886 1659 3034 3774 5448 5989 6012 6927 8765 8851  9120
891480 704 1872 1902 3096 3352 4960 5059 5841 6145 7556 8363  9451
891483 1299 1323 2787 3182 6545 7144 8042  9676
891486 829 2520 5859 6317 6599 7340 8059  9294
891489 1956 2972 3656 3890 5201 5465 7140 8419  9362
891492 639 2112 2989 3069 4109 4156 4424 5942 6135 6651 8093 8349 8905  9459
891495 267 270 348 1769 2736 3483 5339 7599 7838 8653  9317
891498 1525 1586 1946 2002 3108 3585 5083 5185 5461 7537  8749
891501 999 1158 2133 2559 4109 5572 6258 8016 8511  9434
891504 577 3312 4598 4912 5165 6141 6456 6463 6765 7245 7613 8263  9318
891507 616 1222 2977 3232 3347 4182 5784 7685 7717 8500 8974  9448
891510 1432 3233 4752 6329 7387 7937 7968 8022 9697  9780
891513 2106 4236 4286 4785 5347 8771  9847
891516 427 1950 2508 2764 3417 4109 4319 5348 8042  9337
891519 1379 5842 6148 6375 6435 7259 8211  9697
891522 2506 2510  7787
891525 240 917 3035 4366 6318 9325 9759  9971
891528 14 457 465 2078 3108 5090 6256 6366 7633 7757 8102 8907  9580
891531 221 1799 3001 3325 4207 4632 7779  7800
891534 2480 4022 4130 4785 5020 5362 6960 7037  7434
891537 2241 2900 3490 3612 5601 6911 7074  7356
891540 229 1885 2596 3806 3921 5368 5369 6296 6441 8909  9796
891543 499 749 1333 1637 1815 3510 4403 4911 6430 7581  9741
891546 1700 2203 2237 4143 4144 4868  6012
891549 1017 3694 5421 5466 5635 7729  8917
891552 2400 3098 3985 4272 4633 5699 6990 7071 7219 7369 8639 9057  9831
891555 1101 1475 2078 2586 3724 4500 4768 5202 5348  8597
891558 919 1760 1780 2751 3977 3991 4248 5802 6360 6418 7363 8598  9247
891561 813 1456 1904 2489 5601 5958 8676 8709 8974  9647
891564 593 964 2190 2382 4105 4709 4784 4931 5448 8977 9067  9618
891567 2437 2468 4046 6023 6509 8617 9294  9364
891570 600 632 1925 4632 5217 5993 6341 7316 8835 9029 9448  9739
891573 1744 1883 2363 3888 5200 5589 6745  7382
891576 1818 3538 3709 3952 5638 5911 6860 7728 7982 8236 8848 9613  9632
891579 1856 3980 6070 7361  7965
891582 48 792 3591 3890 5117 5965 7871 7977 8848  9922
891585 881 3793 4528 5224 5376 7526  8905
891588 1999 3065 4363 5159 7434  7675
891591 148 743 1113 1449 1458 1637 3298 3483 3599 5527 5903 7162 8119 8696 8715  9298
891594 593 2038 2720 5387 8537 8723  9373
891597 336 2946 6707 7495  9037
891600 1851 4918 5688  9086
891603 1714 2120 2977 4069 4592 7472 8735 9147  9599
891606 34 945 2470 2857 3061 5251 6748 7512  9318
891609 303 589 1552 4506 6643 7008 7720  9373
891612 747 1164 2120 2243 2437 3051 3079 3529  9112
891615 28 250 1604 1885 2347 2484 2596 4043 4652 5368 6011 7241 7349 7537 8760 9238  9796
891618 14 3090 3190 4524 5456 6925 7316 7623  8297
891621 28 3433 3612 4846 5572 5874 6521 7537 7739  9294
891624 427 2794 3156 3634 4697 5501 5586 5925 6009 6086 7472 7572 7678 8489 8617 8730  9843
891627 1027 1955 2177 3882 4943 6928 7407 8924  9546
891630 1 406 1117 2450 3806 5877 6352 6427 6883 7350  8649
891633 14 3190 3551 4277 5456 6126 7316 7623 8013 8297  8924
891636 275 1138 4933 6558 7171 7913 7970 8934  9746
891639 774 797 1525 1586 3585 5083 5185 6892 7537 7881 7892  9354
891642 1744 1887 3256 4449 5042 5914 6745 8065 8103 8462 9058  9271
891645 2385 3025 3352 3551 4363 5026 5362 5688 6091 6233 6416 7471 7706 7852  9369
891648 1057 1214 1794 4542 7147  8607
891651 4383 4827 4898 5073 6978 7454 7857  8465
891654 7358  9068
891657 899 1189 1904 2864 4060 4157 4338 4960 5063 5075 5115 5368 5715 6583 7720  7985
891660 853 1127 1918 2731 4686 4863 7359  8626
891663 334 1436 2461 2587 3477 4431 4598 5199 5624 5777 6866 8212  8289
891666 124 917 3168 4320 5429 6371 7209 7213 8866  9223
891669 2341 2852 3381 4869 5351 6900  9919
891672 250 1896 2899 4087 4454 5482 7877 8100 8502 8570 8915  9293
891675 4767 5008 8600  9775
891678 177 712 909 2240 2479 6197 6777 7576 8488 9079  9951
891681 2150 3430 3827 4032 5799 6594 8059 8111  9130
891684 509 1468 2303 3138 4349 5589 6435 6900 6953 7774  8042
891687 30 3758 3931 4457 5112 5768 5903 6068 7025  8360
891690 1580 2256 2795 3861 6982 7305 7327  9971
891693 448 621 829 1777 1793 2341 2559 3525 3825 5207 7140 9570 9768  9771
891696 47 253 2881 5835 6463 7287 8067 8745  9570
891699 10 223 2523 2919 3005 3146 3872 4190 4397 5384 7188 7270 7309  8203
891702 1220 1637 5783 6561 7151 7478  8675
891705 926 1904 4665 4928 5005 5376 5635 6084 6111 6643 8213 8236 8633  9552
891708 566 605 690 1924 5562 7355 7624 7653 8091 8689 8843  9810
891711 2721 3311 3697 5163 5690 6823 7309 8338 9628  9726
891714 408 732 2120 2232 2341 3280 3298 3467 4344 4708 6270 6775 8989 9515  9977
891717 542 1398 3196 3535 3774 4411 5488 6005 6963 7309  9922
891720 680 1263 3360 4192 4490 4971 5664 6678  8150
891723 364 2278 2433 4273 4412 4431 5823 6653 7881 9449  9877
891726 318 709 2626 2926 3011 5788 5861 6275 7406 8223 8641  9501
891729 305 2700 3951 4769 6008  9722
891732 5088 7145 7209 7213  7542
891735 1711 2557 3205 5420 6049 6187 7606 7941 9225  9852
891738 468 479 1361 2951 3370 4208 5207 6614 6847  8534
891741 90 470 1176 2046 3855 5702 7137 7510 8057 8731  9495
891744 4190 4571 4879 7298 7600  8757
891747 286 850 1929 3129 3133 3689 4699 5560 6049 7242 7577 8067 8732 9110 9330 9460 9718  9726
891750 2301 4951 5119 5697 7550 7622 8144  8599
891753 343 482 2120 2172 3656 4069 4592 6930 7472 8987  9667
891756 240 1254 2462 2975 5067 6576 7219 8166 8379  9858
891759 532 1832 1850 4341 5914 7061 7206 7757  7997
891762 544 2093 2663 5712 6207 6400 8054 8093 8461  8612
891765 822 3255 3796 5942 8689 8943  9345
891768 419 523 1113 1297 1354  6504
891771 3774 5495 6057 6435 8026 8657 9229  9672
891774 448 1477 2993 5088 6665 7690 8263 9198 9375  9737
891777 690 1122 2147 3296 3394 3802 4265 4349 4999 6315 7537 7639 8233 8253 8757  9040
891780 1183 2377 3524 3582 5607 6328 7685 8730 8903  9970
891783 124 2198 2397 3091 5606 5750 6992 7825 7866 8414  8786
891786 492 2083 3009 3449 3580 3886 5928 6114 6141 6766 9261  9737
891789 755 1228 2264 3437 4628 4976 5160 5715 6489 7463  7530
891792 1142 2180 2557 2609 3027 3122 3358 3442 4282 6671 6763 6953 7494  8159
891795 776 2131 2721 3062 5163 5690 7309  9726
891798 144 2130 2461 3731 4203 6129  9806
891801 281 595 1640 1859 2366 2523 2598 4444 5795 6186  8660
891804 2075 2692 3607 4989 5602 6144 6393 6855 8244 9026  9060
891807 683 1286 2040 2581 2751 4344 4808 5002 5818 6009  9123
891810 1376 2795 4233 7528 7826  9910
891813 137 746 1257 1784 2660 2990 5201 5552 6239 6418 6543 7903 8926 9100  9444
891816 261 593 1543 2031 2169 3492 4730 5576 7237 8595  9567
891819 44 428 2183 2289 2301 2337 5362 7037 7117 8144 8882  8906
891822 2307 4246 4567  9495
891825 1151 1478 3316 3756 3919 4257 4747 5762 5886 6470  8989
891828 1456 2337 4253 4344 4437 5892 6130 6927 7245 8671 8817 8983  9792
891831 1458 2196 2992 4030 4080 4363 6277 7095 8251 8413 8491  8535
891834 2273 4960 5587 6010 6168 6721 7618  9567
891837 451 493 1776 1898 2307 2512 2754 3252 4135 6593 6839 6929 7177 9123 9740  9784
891840 101 2364 3342 4586 4764 5905  9449
891843 743 1497 1551 2409 3422 3793 4328 4592 6530 6717 7210  9434
891846 408 823 3567 3885 4226 5449 6597 9371 9553 9573 9883 9924  9963
891849 104 1550 1769 3627 3694 4755 7154  9107
891852 310 489 616 3591 6342 6520 7307 7922 8678 9042  9134
891855 403 813 2042 2118 3155 3223 5027 6576 7533  9758
891858 396 419 497 8924  9692
891861 2079 2093 3709 3952 5006 5335 7004 7668 8214 8614 9417 9613  9793
891864 1058 1680 2459 2605 2692 4598 4653 4899 5374 6321 6700 6823 7411 7528 7672 7682 8051 8491 8521  9852
891867 587 829 937 993 1736 3660 3663 4363 4449 6039 6338 7278 7319 8974  9224
891870 1532 3614 5452 8145  9937
891873 408 1113 4589 4999 6220 7370 8204  8382
891876 20 2628 3490  4863
891879 474 599 1128 3013 4730 4868 4929 6991 7720  9847
891882  1201
891885 56 664 2700 4449 5154 5580 8034  8360
891888 1055 1396 2341 4146 4172 4561 6375 7046 7600  8698
891891 2241 5422 5601 5845 6234 6911 7356 7897  9840
891894 2496 2759 3411 4353 5048 5068 6259 7080 7673 8082 9047 9083 9099  9318
891897 694 2489 2731 3134 3902 4095 4527 5014  8968
891900 618 1340 1450 3809 4069 6106 7116  9511
891903 29 5430 5927 6023  6304
891906 113 2725 2962 4315 5752 6057 6952 8657 9023 9229  9672
891909 593 912 1680 4401 4609  9373
891912 966 1065 1096 1748 2097 3675 3694 5301 6324 6823 7109 7478 8338 9165 9352  9922
891915 808 2429 4513 4705 6126 7075 8215 8820  9576
891918 977 1427 3235 4061 5013 6601  7827
891921 141 718 2520 3107 6287 8370 9285 9473  9588
891924 2079 3636 3645 4127 6011 6752 7502 8213 8758  8868
891927 389 1404 3327 3491 3498 6022  9865
891930 2075 2273 3057 4963 4989 5548  9666
891933 2557 2706 3875 4942 6011 8086 9679  9691
891936 527 1306 5004 6821 7983 9221 9339  9969
891939 2044 2975 3190 5456 7623  7947
891942 175 364 1152 1929 3197 6671  9737
891945 301 531 609 1152 1620 2240 2601 3695 4317 4393 5031 5826 7329 8802 9079  9951
891948 659 1495 1990 3934 4741 7816  9322
891951 91 1328 1999 5342 5667 6043 7645 8006  8672
891954 565 2627 4462 5406 6438 7361 8042 8762  8857
891957 270 636 879 2082 2190 2883 3805 5174 5819 7153 7528 7820 7946 8573 9158  9165
891960 408 799 2358 3728 3962 5092 5431 6729  8927
891963 2016 3035 4345 4746 5082 6004 7012 8488  8730
891966 809 1023 1277 1532 2084 4427 6194 6267 6294 7892  9973
891969 74 1049 3483  3723
891972 919 4248  9185
891975 60 285 923 5572 5609 6813 7479 7556 7854 8382  9790
891978 403 2084 2226 2923 3818 4862 9511  9995
891981 1131 1883 2665 3475 3639 4822 5218 6628 7098 7362 7577 8369  8565
891984 120 177 405 694 788 1147 1793 2036 2041 2731 3820 4887 7687  9052
891987 1558 2557 2996 3195 4943 6937 6955 7716 8999  9033
891990 241 351 709 714 4067 7250  9966
891993 321 1298 4019 5012 7217 7382 8158  9905
891996 1125 1643 1963 3298 4690 4780 6773 8534 8868 8986 9191 9219  9359
891999 616 1645 2721 4258 4999 5378 7104 8382 8882  9883
892000 628 703 1100 1839 2046 2907 3202 4510 5459 5927 6218 6284 6455 6609 7678 8042  9462